time,distance,speed,accelerationX,accelerationY,accelerationZ,speedLimit,speedDifference,speedSeverity
0,0,0.000323089,-0.005406717,0.020792754,-0.004265336,0,0,0
0.02,0.00000002,0,0.000911841,0.004240105,0.000455359,0,0,0
0.03,0.00000001,0,-4.14E-05,-9.17E-05,7.49835E-06,0,0,0
0.05,0.00000001,0,3.1421E-05,-0.000143476,-3.00E-05,0,0,0
0.07,0.00000001,0,1.35945E-05,-0.000360095,2.91195E-05,0,0,0
0.08,0,0,-2.11E-05,0.000450947,4.90302E-05,0,0,0
0.1,0,0,-1.59E-05,0.000508569,4.0317E-05,0,0,0
0.12,0,3.06805E-06,1.2789E-05,-0.000291513,-2.84E-05,0,0,0
0.13,0.00007912,0.5691399,0.000678032,0.009053498,-0.390265048,0,0.57,0
0.15,0.00048782,2.32715487,0.04779354,-0.001843385,-0.5315548,0,2.33,0
0.17,0.00143698,4.243915,0.1410844,-0.003308234,-0.500138164,0,4.24,0
0.19,0.00290106,5.543787,0.103656344,-0.003799061,-0.3295178,0,5.54,0
0.2,0.00401028,6.575163,0.00653163,-0.009123927,-0.248668492,0,6.58,0
0.21,0.00595225,7.25490141,-0.010300263,0.006166308,-0.150240988,0,7.25,0
0.24,0.00859128,7.69475031,-0.03686972,-0.004028297,-0.112174973,0,7.69,0
0.25,0.01080336,8.027894,-0.012749519,0.015195358,-0.07886131,0,8.03,0
0.27,0.01319332,8.727401,-0.00463828,0.006486745,-0.458437026,0,8.73,0
0.29,0.01573296,9.234651,-0.0226359,0.006143359,0.031973448,0,9.23,0
0.3,0.01874851,12.3908558,0.052822392,-0.038732175,-1.51861274,0,12.39,0
0.32,0.02283836,17.2636147,0.410286576,0.5154116,-0.7040485,0,17.26,0
0.34,0.02779106,18.077734,-0.203160763,0.2925198,-0.3936837,0,18.08,0
0.35,0.03291996,18.1263084,-0.718997657,-0.7833619,-0.242129281,0,18.13,0
0.37,0.03794455,17.7280254,-0.067968205,-0.136959508,-0.029489486,0,17.73,0
0.39,0.04292315,17.3806248,0.05499317,0.981724441,0.371662,0,17.38,0
0.4,0.04762755,16.6270771,0.251209617,0.175889552,-0.147391319,0,16.63,0
0.42,0.05256525,18.4681416,0.5237792,1.11729681,-0.6088785,0,18.47,0
0.44,0.05790197,18.022234,-0.384844571,-0.1285015,1.35872555,0,18.02,0
0.45,0.06190394,11.171505,-0.1884157,-0.659605145,1.41844308,0,11.17,0
0.47,0.06485327,10.2998447,0.03415113,-0.870764434,-0.251389533,0,10.3,0
0.49,0.06787542,11.1169434,0.108763859,0.001940686,-0.3808673,0,11.12,0
0.5,0.07157708,15.4817905,-0.200002223,-0.073774554,-1.8301394,0,15.48,0
0.52,0.07656372,19.5463581,-0.10488151,0.931815743,-0.7673143,0,19.55,0
0.54,0.08237263,21.7003231,-0.121560343,0.028076537,-0.547167063,0,21.7,0
0.56,0.08855397,22.67223,0.025446313,-0.6670197,0.154564276,80,-57.33,0
0.57,0.09492246,22.68201,0.019896694,0.214504391,-0.303460926,80,-57.32,0
0.59,0.10140393,23.660183,0.126257524,0.002312371,-0.08168845,80,-56.34,0
0.61,0.10808928,23.903574,-0.3940824,0.017991154,-0.1628446,80,-56.1,0
0.62,0.11486837,24.8084183,-0.4274035,0.020615675,-0.29420802,80,-55.19,0
0.64,0.12207901,25.89141,0.124372244,-0.002441031,-0.3349706,80,-54.11,0
0.66,0.12942817,27.1817646,0.117997468,0.020770432,-0.345985949,80,-52.82,0
0.67,0.13726815,28.2679539,0.1721858,-0.002984993,-0.329150975,80,-51.73,0
0.69,0.14544331,29.4956818,0.125155136,-0.000275066,-0.349939972,80,-50.5,0
0.71,0.15387162,30.5873375,0.09166158,0.006034909,-0.185304433,80,-49.41,0
0.72,0.16261849,30.6748257,0.011806709,0.008809419,0.046997026,80,-49.33,0
0.74,0.17099549,30.3720741,0.042704925,-0.024003573,0.09585951,80,-49.63,0
0.76,0.17956341,29.9890366,0.09331813,0.002021915,0.100717708,80,-50.01,0
0.77,0.18798502,29.6329937,0.108698756,0.001561708,0.09000561,80,-50.37,0
0.79,0.19635651,29.34421,0.07243759,-0.001865235,0.073107734,80,-50.66,0
0.81,0.20479924,29.16171,-0.530840933,-0.051704817,0.031764295,80,-50.84,0
0.82,0.21054769,29.0504951,0.06972142,-0.000289835,0.027157867,80,-50.95,0
0.84,0.21868478,28.9564514,0.06973937,0.000472556,0.02024535,80,-51.04,0
0.85,0.22683901,28.9434471,0.049399003,0.000736299,-0.007204401,80,-51.06,0
0.88,0.23701882,28.9969368,0.080300964,-0.008046485,-0.012337287,80,-51,0
0.89,0.24529993,29.0595646,0.058011636,0.003396031,-0.02119537,80,-50.94,0
0.91,0.25353328,29.1723461,0.038032524,-0.003251056,-0.037852906,80,-50.83,0
0.92,0.25953232,29.35492,0.025542855,0.001764989,-0.06269901,80,-50.65,0
0.94,0.26779815,29.6281586,-0.341929823,0.03779252,-0.074710056,80,-50.37,0
0.96,0.27817405,29.8989677,0.05515389,0.002382979,-0.0794481,80,-50.1,0
0.98,0.28656912,30.184988,0.0878567,0.009877657,-0.07379448,80,-49.82,0
0.99,0.29510986,30.4593563,-0.184340134,0.024910953,-0.07928213,80,-49.54,0
1.01,0.30372125,30.74697,0.062046416,0.003905726,-0.08041513,80,-49.25,0
1.03,0.31240766,30.21028,0.051698405,0.007247264,0.5912026,80,-49.79,0
1.04,0.31966206,22.4957123,0.04174911,-0.003668944,3.227523,80,-57.5,0
1.06,0.32454198,12.3608913,0.01278896,0.03734458,1.75062108,80,-67.64,0
1.08,0.32759227,9.212894,0.172392935,0.003870082,0.468418062,80,-70.79,0
1.09,0.33002754,8.199125,0.144412071,0.004185336,0.150339589,80,-71.8,0
1.11,0.33226116,7.834849,0.13059637,0.013024805,0.06754545,80,-72.17,0
1.13,0.33449158,7.59170771,0.110426649,-0.000353476,0.08107719,80,-72.41,0
1.15,0.33656025,7.27295256,-0.101964168,-0.000790897,0.08512284,80,-72.73,0
1.16,0.33858875,7.201991,-0.04182771,0.000374883,-0.050671723,80,-72.8,0
1.18,0.3406496,7.62131453,-0.02266684,0.00301892,-0.178071737,80,-72.38,0
1.2,0.34288461,8.201748,-0.028919319,0.016610151,-0.144954085,80,-71.8,0
1.21,0.34528243,8.773975,-0.020277793,-0.021012386,-0.156249911,80,-71.23,0
1.23,0.34786871,9.393056,-0.262594074,0.002684694,-0.1808242,80,-70.61,0
1.25,0.35057705,10.383853,-0.004307843,-0.007363991,-0.385830432,80,-69.62,0
1.26,0.35364392,11.5877447,-0.003962329,0.006295788,-0.169532672,80,-68.41,0
1.28,0.35699441,12.0396681,-0.00537213,-0.020112447,-0.259123534,80,-67.96,0
1.3,0.36059041,13.5192089,-0.252819031,-0.022622943,-0.452618033,80,-66.48,0
1.31,0.36469495,15.2285919,0.002698587,0.001912308,-0.464013964,80,-64.77,0
1.33,0.36914847,16.804697,0.001779435,-0.000961698,-0.4141415,80,-63.2,0
1.35,0.37403993,18.2037773,0.002707486,-0.003278289,-0.332973927,80,-61.8,0
1.36,0.37926574,18.6481781,0.003923814,0.008286672,-0.033189755,80,-61.35,0
1.38,0.38456092,19.28744,0.01901491,0.005689561,-0.246138453,80,-60.71,0
1.4,0.39019711,20.22624,-0.324134946,-0.02416248,-0.2836622,80,-59.77,0
1.42,0.39602482,21.276701,0.04176149,0.000924169,-0.278889775,80,-58.72,0
1.43,0.40207007,22.2491455,0.03380015,0.001633389,-0.263394,80,-57.75,0
1.45,0.4084181,23.0939388,0.047415394,0.003914893,-0.237117365,80,-56.91,0
1.47,0.41495172,23.9010868,0.03194259,0.0093008,-0.214457169,80,-56.1,0
1.48,0.42179566,24.6471062,0.056118954,0.001823387,-0.1843294,80,-55.35,0
1.5,0.42885684,25.2454243,0.042487018,-0.012592171,-0.161059752,80,-54.75,0
1.52,0.43602743,25.8210659,0.029624341,0.002017745,-0.1489772,80,-54.18,0
1.53,0.44331698,26.35069,0.06461315,-0.024106164,-0.132133648,80,-53.65,0
1.55,0.45082331,26.7914639,0.04475755,0.013311906,-0.110635005,80,-53.21,0
1.57,0.45833035,27.15131,0.060112327,-0.053863816,-0.08519091,80,-52.85,0
1.58,0.46610003,27.42598,0.08595591,0.007195903,-0.06195275,80,-52.57,0
1.6,0.47385226,27.6194458,0.13263841,-0.03544911,-0.05457674,80,-52.38,0
1.62,0.48159358,27.8959389,0.057814978,0.036417585,-0.09909604,80,-52.1,0
1.63,0.48950047,28.247694,0.082712695,-0.024284834,-0.09414625,80,-51.75,0
1.65,0.49747734,28.5047245,0.052897405,0.007733082,-0.056739755,80,-51.5,0
1.67,0.50539797,28.6381454,0.141947612,-0.03581097,-0.014861282,80,-51.36,0
1.68,0.51350128,28.61777,-0.297627777,0.001404081,0.050309703,80,-51.38,0
1.7,0.52137477,28.2990322,0.0878365,0.111799181,0.120281681,80,-51.7,0
1.72,0.52926329,27.7694016,-0.593007267,0.2216257,0.137694508,80,-52.23,0
1.73,0.53693779,27.21216,0.071420126,-0.152220786,0.163739517,80,-52.79,0
1.75,0.54458356,26.7050724,0.034607977,0.165544257,0.126885191,80,-53.29,0
1.76,0.55021121,26.3304367,0.007474038,0.08199722,0.06541652,80,-53.67,0
1.79,0.55940065,26.1806469,0.018894937,0.07066739,0.010436898,80,-53.82,0
1.8,0.56679455,26.320385,0.030886464,-0.004861448,-0.054593917,80,-53.68,0
1.82,0.57417803,26.57617,-0.503345549,0.07471526,-0.027550433,80,-53.42,0
1.84,0.58159678,25.6379223,-0.025802778,0.01346517,0.378997177,80,-54.36,0
1.85,0.58859671,24.3120365,-0.04875947,0.037629783,0.353324145,80,-55.69,0
1.87,0.59534429,23.0855865,-0.019391777,-0.010690679,0.326695532,80,-56.91,0
1.89,0.6015695,21.9611855,0.07927394,0.007174461,0.3058893,80,-58.04,0
1.9,0.60759146,20.8827877,-0.035690494,0.000570206,0.303034,80,-59.12,0
1.92,0.61337542,19.9051361,-0.024508353,-0.000169101,0.29111734,80,-60.09,0
1.94,0.61892579,18.8559341,-0.0166069,0.000526803,0.275916129,80,-61.14,0
1.95,0.62420462,18.4796429,-0.009398911,-0.005723805,-0.000278024,90,-71.52,0
1.97,0.6293652,19.0139675,0.3497482,-0.003889759,-0.222811535,90,-70.99,0
1.99,0.63478513,19.89281,-0.112494141,0.000994837,-0.263854474,90,-70.11,0
2.01,0.64056771,20.7263184,-0.004043648,0.023013141,-0.143964112,90,-69.27,0
2.02,0.6464237,20.9780369,-0.597675,-0.001873181,-0.057743743,90,-69.02,0
2.04,0.65247835,21.2636833,-0.359869361,0.01571743,-0.108546093,90,-68.74,0
2.06,0.65853314,21.81392,0.101647794,0.03823521,-0.150095522,90,-68.19,0
2.07,0.6645958,22.2781563,0.06796856,0.002994044,-0.122462586,90,-67.72,0
2.08,0.66926725,22.8687172,0.444502831,0.002742955,-0.1888124,90,-67.13,0
2.1,0.67578661,23.51409,0.4299773,0.010689487,-0.156990856,90,-66.49,0
2.12,0.68248598,24.008482,-0.131306082,-0.018365093,-0.120777421,90,-65.99,0
2.14,0.69096844,24.4627266,0.3765814,0.012695029,-0.153002456,90,-65.54,0
2.15,0.69613884,25.2393913,-0.09824091,0.004324393,-0.262976,90,-64.76,0
2.17,0.70343854,26.43991,0.216115654,-0.02702195,-0.3774702,90,-63.56,0
2.19,0.71111624,28.0226078,0.258313954,-0.014061431,-0.480325282,90,-61.98,0
2.21,0.72131591,29.9391747,-0.061744347,-0.04931159,-0.561498642,90,-60.06,0
2.22,0.73007271,31.8130074,0.208223924,-0.08788927,-0.526214957,90,-58.19,0
2.24,0.73923117,33.7998466,-0.200080574,-0.090308994,-0.6167643,90,-56.2,0
2.26,0.74921099,36.1657829,0.463089317,0.07193435,-0.722334564,90,-53.83,0
2.27,0.75960533,38.8986473,-0.08306563,0.019489305,-0.7521592,90,-51.1,0
2.29,0.7707389,41.6658821,0.7615906,0.0368356,-0.7463683,90,-48.33,0
2.31,0.78277289,43.9514923,-0.327680737,-0.007264531,-0.718747,90,-46.05,0
2.33,0.79548052,46.5478935,-0.060016125,0.002327761,-0.677455,90,-43.45,0
2.34,0.8091477,48.62013,-0.034513682,-0.006881971,-0.6016579,90,-41.38,0
2.36,0.82282554,50.3551674,-0.024786506,0.012090422,-0.331760824,90,-39.64,0
2.38,0.83698279,51.17092,-0.013391381,0.006663247,-0.212886259,90,-38.83,0
2.39,0.8514634,51.8532181,-0.004401052,0.008157733,-0.106595054,90,-38.15,0
2.41,0.86591768,51.80299,0.563248634,0.07380327,0.101987571,90,-38.2,0
2.43,0.88033682,51.08873,-0.099290855,-0.015008917,0.231431112,90,-38.91,0
2.44,0.89460115,50.2964478,-0.1265808,0.014487001,0.234549776,90,-39.7,0
2.46,0.90920836,49.4871979,-0.115600422,0.003177197,0.233577013,90,-40.51,0
2.48,0.92270935,48.90055,0.00159457,0.004894113,0.12940298,90,-41.1,0
2.49,0.93624782,48.57643,0.001044903,-0.002069075,0.071608014,90,-41.42,0
2.51,0.94990218,48.3776169,-0.001283058,-0.002503197,0.047088068,90,-41.62,0
2.53,0.96355196,48.2579575,0.000320889,-0.000684307,0.034006953,90,-41.74,0
2.54,0.9770619,48.1459732,-0.027991679,4.01528E-06,0.028616555,90,-41.85,0
2.56,0.99056849,48.043457,-0.008435056,-0.004026124,0.027884105,90,-41.96,0
2.58,1.00386186,47.9567566,-0.0159223,0.000480346,0.022333495,90,-42.04,0
2.59,1.01733627,47.9086266,-0.044207722,-0.002301654,-0.002426791,90,-42.09,0
2.61,1.03068916,48.04028,0.130651951,-0.012964521,-0.06096566,90,-41.96,0
2.63,1.0443899,48.2930565,-0.049135312,0.006919278,-0.08759142,90,-41.71,0
2.65,1.05808584,48.66935,-0.048588082,0.03434732,-0.10231483,90,-41.33,0
2.66,1.07175933,48.9984436,-0.028450044,-0.002432955,-0.102606662,90,-41,0
2.68,1.08649929,49.4502563,0.04815442,0.062365603,-0.144316331,90,-40.55,0
2.7,1.09988654,49.91904,0.2743898,-0.003450305,-0.13509205,90,-40.08,0
2.71,1.11414254,50.3184547,0.00044605,0.002688292,-0.111275956,90,-39.68,0
2.73,1.12829811,50.6925125,2.56887E-05,-0.001444097,-0.101096034,90,-39.31,0
2.75,1.14227118,51.03263,-0.028654933,0.002784918,-0.09365709,90,-38.97,0
2.76,1.15614295,51.40503,-0.886838257,0.08453522,-0.08374609,90,-38.59,0
2.78,1.17068974,51.6824341,0.3946737,0.039801303,-0.084684536,90,-38.32,0
2.8,1.18513825,52.03567,0.00011386,0.003975715,-0.09462412,90,-37.96,0
2.81,1.1998859,52.37247,-0.016149705,-0.065904036,-0.09963109,90,-37.63,0
2.83,1.21468358,52.69986,0.053501945,0.007483708,-0.092146374,90,-37.3,0
2.85,1.22950952,52.9900246,-0.311006159,0.06369992,-0.0853426,90,-37.01,0
2.86,1.24445068,53.3107147,0.04691424,0.003215467,-0.085565776,90,-36.69,0
2.88,1.25946403,53.6092339,0.026801728,-7.56E-06,-0.08601783,90,-36.39,0
2.9,1.27456823,53.8514824,0.021858627,0.007580673,-0.02961338,90,-36.15,0
2.91,1.28964123,53.70614,0.00700572,0.000786708,0.07070382,90,-36.29,0
2.93,1.30485813,53.39228,0.000808831,0.002500015,0.093861856,90,-36.61,0
2.95,1.31989736,53.0801048,-0.051112372,0.001468355,0.076420344,90,-36.92,0
2.97,1.33458601,52.8901443,0.105192892,0.006350037,0.042573094,90,-37.11,0
2.98,1.34984836,52.7722664,-0.007910945,0.018103655,0.02921156,90,-37.23,0
3,1.36440923,52.6987953,-0.05044246,0.001675515,0.008926091,90,-37.3,0
3.02,1.37912633,52.84219,-0.028371204,-0.000281518,-0.06779816,90,-37.16,0
3.03,1.39410876,53.1239,0.6184482,0.10289067,-0.058081735,90,-36.88,0
3.05,1.40515945,53.2464066,-0.06316659,0.000869016,-0.026494786,90,-36.75,0
3.06,1.4201476,53.1782951,-0.03340381,0.005028359,0.046275385,90,-36.82,0
3.08,1.43505578,53.09786,-0.08114076,0.014211222,-0.000921935,90,-36.9,0
3.1,1.44997998,53.1872177,-0.038697615,0.00162559,-0.036342815,90,-36.81,0
3.12,1.46849084,53.3501472,-0.020974636,-0.002284452,-0.04971577,90,-36.65,0
3.13,1.48357245,53.5273972,-0.009507064,-0.003105197,-0.05088312,90,-36.47,0
3.15,1.4986126,53.68952,-0.04858254,0.002953461,-0.0476157,90,-36.31,0
3.17,1.51396945,53.8681335,-0.023378857,-0.000195417,-0.049177878,90,-36.13,0
3.18,1.52874623,54.0354,-0.01195986,0.001059134,-0.048245147,90,-35.96,0
3.2,1.54400594,54.2107925,-0.011974381,-0.001183286,-0.04632819,90,-35.79,0
3.22,1.55922037,54.35601,-0.058800813,0.002591981,-0.039478622,90,-35.64,0
3.23,1.57465864,54.51328,-0.031999603,0.001131642,-0.04275749,90,-35.49,0
3.25,1.58986698,54.65923,-0.02033369,-0.011490811,-0.042351205,90,-35.34,0
3.27,1.60519341,54.8152466,0.5978474,0.05360099,-0.039232563,90,-35.18,0
3.29,1.62054427,54.9426346,-0.041204073,0.001382428,-0.036995158,90,-35.06,0
3.3,1.63597656,55.06977,0.363519,-0.109776564,-0.037309878,90,-34.93,0
3.32,1.65140999,55.16903,-0.045135476,0.018748943,-0.029956754,90,-34.83,0
3.34,1.6673646,55.28592,-0.002073199,0.0051976,-0.03780771,90,-34.71,0
3.35,1.68278468,55.4065933,0.000589638,0.000851299,-0.037864935,90,-34.59,0
3.37,1.69816498,55.5534935,-0.165875435,-0.18166779,-0.04262014,90,-34.45,0
3.39,1.71379791,55.6689339,-0.034242075,0.001851188,-0.034649022,90,-34.33,0
3.4,1.7298669,55.79225,-0.017428543,-0.010651188,-0.032823607,90,-34.21,0
3.42,1.74537332,55.631115,0.008470915,0.008980393,0.128876433,90,-34.37,0
3.44,1.76044945,54.90672,-0.045035813,0.002587449,0.223454148,90,-35.09,0
3.45,1.77567532,54.0657539,0.032557793,0.027913425,0.238732666,90,-35.93,0
3.47,1.79102862,53.2582779,0.031237166,-0.008394258,0.1618482,90,-36.74,0
3.49,1.80572996,52.9098625,0.04521853,-0.001162704,0.087040894,90,-37.09,0
3.5,1.82081846,52.6656151,0.07066925,0.002311546,0.0661546,90,-37.33,0
3.52,1.8355755,52.4290466,0.115610391,0.001652468,0.06462674,90,-37.57,0
3.54,1.85015876,52.2564049,-0.1108909,0.006186541,0.048867572,90,-37.74,0
3.55,1.86460455,52.0662079,0.107898906,0.008338019,0.052632827,90,-37.93,0
3.57,1.87925962,51.8909721,0.08203011,0.009596238,0.045891993,90,-38.11,0
3.59,1.89389481,51.72097,0.09898686,0.02273663,0.053313777,90,-38.28,0
3.61,1.90903051,51.5748062,0.05666086,0.00477715,0.021463608,90,-38.43,0
3.62,1.91888797,51.58461,0.120383218,-0.015989464,-0.022540681,90,-38.42,0
3.63,1.93346453,51.713913,0.10598585,0.0350886,-0.036142536,90,-38.29,0
3.65,1.94810196,51.9138947,-0.002990795,0.006507374,-0.0696522,90,-38.09,0
3.67,1.96261407,52.15703,0.055585932,0.007131946,-0.068954095,90,-37.84,0
3.69,1.98083625,52.46792,0.002837568,-0.006226076,-0.092661485,90,-37.53,0
3.71,1.99601657,52.82909,0.000102328,0.001363169,-0.107728258,90,-37.17,0
3.72,2.01046731,53.23136,0.257640719,0.026991252,-0.118640624,90,-36.77,0
3.74,2.02538767,53.66078,-0.014430556,-0.003979122,-0.116408944,90,-36.34,0
3.76,2.04040973,54.0671234,-0.005907624,0.002183812,-0.109462112,90,-35.93,0
3.77,2.05605623,54.4635353,-0.000142329,0.000270997,-0.110143043,90,-35.54,0
3.79,2.07125943,54.56336,-0.000283866,0.010683993,0.06977671,90,-35.44,0
3.81,2.08638436,54.01048,8.74205E-05,-0.000149093,0.184697136,90,-35.99,0
3.82,2.10184355,53.3242645,-0.000306459,-0.00239475,0.212885052,90,-36.68,0
3.84,2.1164327,52.564724,0.815248132,-0.017237332,0.216415673,90,-37.44,0
3.86,2.13105758,51.6918449,-0.09145752,0.000104438,0.234824166,90,-38.31,0
3.87,2.14574045,50.8461647,-0.07747476,-0.009518341,0.235173225,90,-39.15,0
3.89,2.15969286,50.2175751,-0.114077464,0.006404023,0.149979979,90,-39.78,0
3.91,2.17381386,49.65587,-0.034383424,0.000395116,0.1951173,90,-40.34,0
3.93,2.1880589,48.5858078,-0.02282391,-0.001953708,0.342151135,90,-41.41,0
3.94,2.20169316,47.28008,-0.009163059,-0.001226131,0.4300281,90,-42.72,0
3.96,2.21422664,45.46511,-0.043873392,-0.004432811,0.515135467,90,-44.53,0
3.98,2.22689119,43.4956169,0.3071042,0.024010778,0.6134327,90,-46.5,0
3.99,2.23883218,41.1255341,-0.06667551,-0.000581917,0.65699625,90,-48.87,0
4.01,2.25013752,38.7551956,-0.0424112,0.016093295,0.6436232,70,-31.24,0
4.03,2.26085229,36.4361763,-0.06076539,0.001506198,0.6505875,70,-33.56,0
4.04,2.26801156,34.17579,0.688603044,-0.008155197,0.7287711,70,-35.82,0
4.06,2.27726789,31.54962,-0.159485564,-0.014456738,0.6091984,70,-38.45,0
4.07,2.28584583,29.6606541,-0.06973481,-0.061411347,0.49748835,70,-40.34,0
4.09,2.29603848,27.988308,-0.112758644,0.05180245,0.422523677,70,-42.01,0
4.11,2.30371771,26.7546921,-0.022903748,-0.032399137,0.322858751,70,-43.25,0
4.12,2.30911054,25.8583241,-0.08767442,-0.084558755,0.21393244,70,-44.14,0
4.14,2.31618341,24.4128017,0.251356751,0.058715433,0.496741623,70,-45.59,0
4.16,2.32277996,22.47283,-0.113552928,-0.008204026,0.5214991,70,-47.53,0
4.17,2.32889208,20.7988529,0.159918591,-0.013304502,0.28927207,50,-29.2,0
4.19,2.33469073,20.62002,0.307183117,-0.015408065,-0.06331443,50,-29.38,0
4.21,2.34057988,21.2377148,-0.143999934,-0.00074501,-0.27923584,50,-28.76,0
4.23,2.34817698,22.6621017,0.004570665,0.021457363,-0.474019229,50,-27.34,0
4.25,2.35486352,24.53697,-0.154721722,0.00139971,-0.5631724,50,-25.46,0
4.26,2.36199009,26.4176445,-0.6504607,0.015753448,-0.588647962,90,-63.58,0
4.28,2.3697735,28.5240879,-0.5439623,-0.00053966,-0.605314136,90,-61.48,0
4.3,2.37789466,29.7153149,0.106013119,0.014324999,-0.135240778,90,-60.28,0
4.31,2.38614667,29.4035435,0.583538234,0.006609376,0.210304558,90,-60.6,0
4.33,2.39441475,28.5615635,0.2377064,0.04622473,0.2553446,90,-61.44,0
4.35,2.40226192,27.8816528,0.274865955,-0.01769475,0.14945966,90,-62.12,0
4.36,2.41009954,27.6059246,0.2650223,0.04357205,0.026825586,90,-62.39,0
4.38,2.41785542,27.7382813,-0.171525672,0.000919004,-0.06929718,90,-62.26,0
4.4,2.42571477,28.3999634,-0.109666981,-0.000140901,-0.2349771,90,-61.6,0
4.41,2.43373594,29.2947273,-0.0791736,-0.001603752,-0.2718944,90,-60.71,0
4.43,2.44004793,30.1900177,0.001774077,-0.036471143,-0.2749043,90,-59.81,0
4.44,2.448651,30.95719,-0.030125778,0.005588355,-0.084152296,90,-59.04,0
4.46,2.45941146,31.12235,-0.027280675,-0.003647071,-0.1025551,90,-58.88,0
4.48,2.46834027,31.71975,-0.019027567,0.000356784,-0.20025143,90,-58.28,0
4.5,2.47738489,32.4391251,-0.014017732,-8.45E-05,-0.227283448,90,-57.56,0
4.51,2.4865578,33.3426666,-0.022640348,0.004218884,-0.234653756,90,-56.66,0
4.53,2.49614601,34.140358,-0.013624251,0.001601972,-0.238796726,90,-55.86,0
4.55,2.50583325,35.0542145,0.017974027,-0.005221771,-0.243843749,90,-54.95,0
4.57,2.51577971,35.9215431,-0.036924858,-0.040412344,-0.236261755,90,-54.08,0
4.58,2.52605619,36.76081,-0.020252468,-0.000130669,-0.227615386,80,-43.24,0
4.6,2.53646169,37.5641747,-0.006850522,-0.000106562,-0.229148969,80,-42.44,0
4.62,2.54717537,38.35959,-0.445872456,-0.011681784,-0.247322917,80,-41.64,0
4.63,2.55800535,39.2282944,0.027722426,0.003374048,-0.23837325,80,-40.77,0
4.65,2.56928215,40.0617256,0.016537814,0.000766716,-0.239185825,80,-39.94,0
4.67,2.58057002,40.8871078,0.009091684,0.001196354,-0.240782291,80,-39.11,0
4.68,2.5921735,41.74898,0.04659352,0.014471366,-0.232879788,80,-38.25,0
4.7,2.60424594,42.4773636,-0.5137808,0.07170348,-0.225646853,80,-37.52,0
4.72,2.61613275,43.27916,0.215282246,-0.052654475,-0.216811657,80,-36.72,0
4.73,2.62846445,44.0248833,0.125893727,0.000755406,-0.2053728,80,-35.98,0
4.75,2.64088907,44.72243,0.09571416,-0.06142372,-0.212903336,80,-35.28,0
4.77,2.65354518,45.4101067,0.162991852,0.007053827,-0.1902145,80,-34.59,0
4.79,2.66659219,46.0587044,0.09795042,0.002273554,-0.193258747,80,-33.94,0
4.8,2.6794224,46.5968,0.143018991,0.011717469,-0.083007656,80,-33.4,0
4.82,2.69250706,46.4037323,0.08582363,0.008213097,0.137540251,80,-33.6,0
4.84,2.70555784,45.8097763,0.053566426,0.000202701,0.203867152,80,-34.19,0
4.85,2.71823379,45.0030136,0.025475,-0.102311037,0.2108884,80,-35,0
4.87,2.73082186,44.20381,0.2267137,-0.08907498,0.223992392,80,-35.8,0
4.89,2.74308985,43.5116768,0.07239179,-0.004088818,0.137975141,80,-36.49,0
4.9,2.75521362,43.17269,0.08953539,-0.039241463,0.08332742,80,-36.83,0
4.92,2.76727915,42.92425,0.063698,0.000303266,0.068438046,80,-37.08,0
4.94,2.779341,42.72206,-0.115888655,0.011223082,0.057754565,80,-37.28,0
4.95,2.79156306,42.5480766,0.03709598,0.002242252,0.051843442,80,-37.45,0
4.97,2.8032252,42.3532448,0.071522854,0.006745653,0.056798928,80,-37.65,0
4.99,2.81497638,42.17078,-0.7147434,0.069060266,0.055328295,80,-37.83,0
5,2.82391958,42.0004654,0.07226849,-0.001740516,0.049239792,80,-38,0
5.02,2.83565835,41.84791,-0.5050889,-0.08593713,0.03816147,80,-38.15,0
5.04,2.85035608,41.67507,0.077110164,0.002576437,0.044496026,80,-38.32,0
5.05,2.86213362,41.54211,0.044452373,0.000976323,0.03570088,80,-38.46,0
5.07,2.8736202,41.4101028,0.081022434,0.001940033,0.039729357,80,-38.59,0
5.09,2.8853365,41.2932472,0.04804944,-0.000864655,0.029434986,80,-38.71,0
5.11,2.89695632,41.2143364,0.027928347,0.001056454,0.02361544,80,-38.79,0
5.12,2.90855562,41.1475754,0.036741924,0.007688801,0.020691356,80,-38.85,0
5.14,2.92019098,41.06498,0.08086852,0.010755478,0.026385017,80,-38.94,0
5.16,2.93159691,40.975647,0.06295917,0.000994387,0.024113275,80,-39.02,0
5.17,2.94318601,40.91003,0.5519251,0.057661496,0.017961834,80,-39.09,0
5.19,2.95465977,40.88311,0.012097871,0.010563744,0.00791924,80,-39.12,0
5.21,2.96617098,40.8532944,0.008381102,0.001929933,0.00885197,80,-39.15,0
5.22,2.97753743,40.8218346,0.004133147,-0.001959615,0.009046528,80,-39.18,0
5.24,2.98915767,40.80321,0.1786686,-0.019225128,0.011461332,80,-39.2,0
5.26,3.00068393,40.7184868,-0.04834551,0.008093883,0.018242225,80,-39.28,0
5.27,3.01198968,40.7644234,-0.026987111,-0.001384942,-0.041910324,80,-39.24,0
5.29,3.02364927,40.97761,-0.047249228,0.003614192,-0.06935436,80,-39.02,0
5.31,3.03544778,41.257885,-0.06428178,0.002030879,-0.092861444,80,-38.74,0
5.33,3.04733165,41.572525,-0.111142769,-0.06389309,-0.104157209,80,-38.43,0
5.34,3.05860662,41.9457932,-0.0815027,-0.00440949,-0.101513535,80,-38.05,0
5.36,3.07036529,42.2954521,-0.050614987,0.001059395,-0.110119835,80,-37.7,0
5.38,3.08233824,42.6358032,-0.03307611,-0.00268296,-0.123664454,80,-37.36,0
5.39,3.09414295,43.04355,-0.01953564,0.000159969,-0.127635717,80,-36.96,0
5.41,3.10644707,43.46979,-0.00124589,-0.012144749,-0.136568218,80,-36.53,0
5.43,3.11860035,44.03379,-0.037742544,-0.016418915,-0.16663307,80,-35.97,0
5.44,3.13108212,44.6816864,-0.042558644,0.002072807,-0.1863005,80,-35.32,0
5.46,3.14361282,45.3592262,-0.000918896,0.013592376,-0.18980822,80,-34.64,0
5.48,3.1563669,46.0133553,0.021842392,-0.006780874,-0.183370665,80,-33.99,0
5.49,3.16945214,46.6254768,-0.043109715,0.004432602,-0.168069273,80,-33.37,0
5.51,3.18292735,47.20575,-0.02634104,0.000900953,-0.160784885,80,-32.79,0
5.53,3.19620564,47.8277626,-0.005635756,-0.006793957,-0.196240082,80,-32.17,0
5.54,3.20953668,48.5411949,-0.012763098,0.000892079,-0.206500068,80,-31.46,0
5.56,3.22322649,49.24316,-0.01885967,-0.006223503,-0.201018125,80,-30.76,0
5.58,3.23718153,49.9436722,0.001884817,0.00024837,-0.193058461,80,-30.06,0
5.59,3.25124705,50.62411,-0.26818043,0.021958757,-0.161923543,80,-29.38,0
5.61,3.2658745,50.7403336,0.036103565,0.01065375,0.018333819,80,-29.26,0
5.63,3.2799328,50.9880753,-0.030941008,-0.042817168,-0.132259279,80,-29.01,0
5.64,3.2940265,51.51156,0.089398794,-0.119465359,-0.17690447,80,-28.49,0
5.66,3.30875304,52.23704,0.025570374,5.95658E-05,-0.193253025,80,-27.76,0
5.68,3.32353991,52.96604,0.013379672,0.002042405,-0.2080508,80,-27.03,0
5.7,3.33855562,53.75957,0.00799268,0.00123626,-0.240313,80,-26.24,0
5.71,3.35370338,54.54619,-0.204961777,0.014463617,-0.229915589,80,-25.45,0
5.73,3.36916158,55.3245049,0.192603379,-0.156544462,-0.212685823,80,-24.68,0
5.75,3.38472107,56.03569,-0.08140751,0.014170766,-0.201847821,80,-23.96,0
5.76,3.40061773,56.72883,0.024180768,-0.012897488,-0.187742427,80,-23.27,0
5.78,3.41680013,57.3879662,0.011194093,-0.000428888,-0.184875607,80,-22.61,0
5.8,3.43295497,58.003727,0.03836533,-0.001062164,-0.177207753,80,-22,0
5.81,3.44953772,58.5937653,-0.013826403,-0.002078588,-0.1811561,80,-21.41,0
5.83,3.46169925,59.25688,-0.008600679,0.002351075,-0.187793955,80,-20.74,0
5.84,3.47836947,59.93432,-0.000268686,0.002086253,-0.19771637,80,-20.07,0
5.86,3.49536962,60.6578979,0.025016371,0.021813951,-0.20914948,80,-19.34,0
5.88,3.51258566,61.4657364,0.011631182,0.008551102,-0.2288341,80,-18.53,0
5.89,3.52978799,62.2673073,0.006120214,0.003165133,-0.229944214,80,-17.73,0
5.91,3.55163241,63.0552673,0.047421798,-0.107655846,-0.217355222,80,-16.94,0
5.93,3.56974337,63.791935,-0.006132214,0.041218624,-0.20399949,80,-16.21,0
5.95,3.5876362,64.39547,-0.015964706,-0.006414259,-0.1506336,80,-15.6,0
5.96,3.605606,64.72882,-0.000202378,0.005859256,-0.05267968,80,-15.27,0
5.98,3.6238223,64.74539,0.003594024,-0.012901062,0.023655463,80,-15.25,0
6,3.64203756,64.5937347,0.002544724,0.02057527,0.056810323,80,-15.41,0
6.01,3.65984929,64.2952,-0.001755841,-0.007615115,0.107132025,80,-15.7,0
6.03,3.67826725,63.8297539,0.051771645,0.021057967,0.148309514,80,-16.17,0
6.05,3.69644881,63.38816,0.028090447,-0.011659335,0.08737872,80,-16.61,0
6.07,3.71363879,63.29332,0.492611945,0.08065963,-0.006901482,80,-16.71,0
6.08,3.73136463,63.4455643,-0.024858158,0.029262185,-0.057669506,80,-16.55,0
6.1,3.74922502,63.75011,0.018037107,0.027059723,-0.08797469,80,-16.25,0
6.12,3.76711042,64.12958,-0.09534181,0.04318136,-0.115441628,80,-15.87,0
6.13,3.78545314,64.5913,-0.016232267,0.006362802,-0.134531125,80,-15.41,0
6.15,3.8034503,65.11792,-0.5400209,0.014899045,-0.157328665,80,-14.88,0
6.17,3.82204928,65.27416,0.021148317,0.017092675,0.003249777,80,-14.73,0
6.18,3.84041613,65.5283661,0.00181673,-0.003386129,-0.124791838,80,-14.47,0
6.2,3.85865734,66.0715,0.00918672,-0.001963248,-0.175823,80,-13.93,0
6.22,3.87749398,66.76284,0.038027063,0.007012988,-0.196594819,80,-13.24,0
6.23,3.89637564,67.44046,0.02029876,-0.003087087,-0.199696273,80,-12.56,0
6.25,3.91539044,68.1105957,-0.6948095,0.111184075,-0.185905665,80,-11.89,0
6.27,3.93463178,68.91973,0.08104643,0.006335461,-0.235666543,80,-11.08,0
6.28,3.95403008,69.77712,0.033196148,0.002568001,-0.262767226,80,-10.22,0
6.85,4.64562246,69.3019943,0.04235662,0.012552448,0.3420655,80,-10.7,0
6.87,4.6700607,67.84166,0.09080663,0.004002983,0.6770589,80,-12.16,0
6.89,4.68821099,60.6559753,0.039610785,0.02220929,3.46742272,80,-19.34,0
6.91,4.70350012,49.20603,0.125426263,-0.015552382,2.076418,80,-30.79,0
6.93,4.7163054,41.7190247,0.07346554,-0.028342268,2.35815978,80,-38.28,0
6.94,4.72716962,36.1142426,-0.06674955,0.003255416,1.26454151,80,-43.89,0
6.96,4.73664362,32.9270363,0.029057272,0.01609011,0.697550058,80,-47.07,0
6.98,4.74577676,31.1651974,0.002430224,-0.011830067,0.340886444,80,-48.83,0
6.99,4.75430793,29.711298,0.007154301,0.007838018,0.374539077,80,-50.29,0
7.01,4.76205343,26.9055862,6.54889E-05,0.00919864,1.1687448,80,-53.09,0
7.03,4.76942719,24.291193,0.192035586,0.06704606,0.5729648,50,-25.71,0
7.04,4.77502335,16.57326,0.115929857,0.01144838,3.78954434,50,-33.43,0
7.06,4.77821482,5.521526,0.02493018,-0.014450099,1.204287,50,-44.48,0
7.08,4.77952877,3.967351,-0.037901036,0.004679169,0.30256027,50,-46.03,0
7.09,4.78090189,5.97884226,0.08439587,-0.043901797,-1.04695606,50,-44.02,0
7.11,4.78314358,9.61553,0.013811344,-0.008026476,-0.586026847,50,-40.38,0
7.13,4.78590585,10.5551481,-0.01113402,0.002743929,-0.3507799,50,-39.44,0
7.14,4.78923195,13.0388861,-0.295423478,-0.000670804,-0.8546362,50,-36.96,0
7.16,4.79337173,16.18306,-0.3600548,-0.002145458,-0.9346393,50,-33.82,0
7.18,4.79822416,18.7894421,0.027149446,0.029796716,-0.4392562,50,-31.21,0
7.19,4.80362757,19.352253,0.05841965,0.025310809,-0.111023635,50,-30.65,0
7.21,4.80913276,19.9705353,-0.265192,0.001971319,-0.194348544,50,-30.03,0
7.23,4.81484346,20.65897,0.161196947,0.011671472,-0.194285676,50,-29.34,0
7.24,4.82065966,21.301609,0.2735281,-0.006776133,-0.160361111,50,-28.7,0
7.26,4.82679827,21.8183689,-0.24599725,-0.027850829,-0.1516175,50,-28.18,0
7.28,4.8330505,22.4017448,-0.2458935,0.006017801,-0.155929253,50,-27.6,0
7.3,4.83933458,22.93425,0.251050621,0.003792668,-0.142298847,50,-27.07,0
7.31,4.84582303,23.4579048,0.239210218,-0.034254823,-0.14954035,50,-26.54,0
7.33,4.85254708,24.00596,0.301501185,0.009743189,-0.1596373,50,-25.99,0
7.35,4.85940152,24.7126846,0.5963112,0.000299461,-0.226590782,50,-25.29,0
7.36,4.86645282,25.6537437,0.562763035,-0.000176998,-0.298391044,50,-24.35,0
7.38,4.87379669,26.7504444,0.2705835,-0.01289678,-0.275839448,50,-23.25,0
7.4,4.88152484,27.42941,-0.149571463,0.0120845,-0.109112419,50,-22.57,0
7.41,4.88913381,27.3003922,-0.104293168,-0.004390799,0.096826516,50,-22.7,0
7.43,4.89671025,26.924654,-0.059634395,0.004302172,0.122150473,50,-23.08,0
7.45,4.90423071,26.4750347,-0.021548025,-0.002374022,0.10994485,50,-23.52,0
7.46,4.91200266,26.1171055,-0.236138925,0.011233884,0.100302815,50,-23.88,0
7.48,4.91699146,25.7895126,0.029149076,-0.029078746,0.08889544,50,-24.21,0
7.49,4.92419576,25.618784,0.017807126,0.002705461,0.001942602,50,-24.38,0
7.51,4.93144448,25.75008,-0.009463572,0.00513984,-0.056745052,50,-24.25,0
7.53,4.93873041,25.9843616,-0.005640635,0.011558756,-0.066985086,50,-24.02,0
7.54,4.94609122,26.2302475,0.012756553,0.016934782,-0.06530847,50,-23.77,0
7.56,4.95347982,26.4409351,0.009756831,0.001259052,-0.05891668,50,-23.56,0
7.58,4.96089775,26.6496067,-0.010764043,-0.04654116,-0.059042577,50,-23.35,0
7.59,4.96843475,26.8675766,-0.01228615,-0.006493965,-0.05451625,50,-23.13,0
7.61,4.97596647,27.0373669,-0.008500822,9.48416E-05,-0.04638204,50,-22.96,0
7.63,4.98358008,27.1842136,0.012166373,-0.010063247,-0.008703709,50,-22.82,0
7.64,4.99117094,26.6092987,0.010151899,0.00514808,0.242833212,50,-23.39,0
7.66,4.99854349,25.637085,0.015002762,0.002119085,0.261164427,50,-24.36,0
7.68,5.00562295,24.7804756,0.003417006,0.001000978,0.232352749,50,-25.22,0
7.7,5.01435167,24.013567,0.479751974,0.04536093,0.2227565,50,-25.99,0
7.72,5.02092766,23.0511723,0.295090079,0.005813286,0.4987991,50,-26.95,0
7.73,5.02697421,20.181366,0.1771025,-0.014279517,0.63367337,50,-29.82,0
7.75,5.03264449,18.8492355,0.151967034,-0.000644965,0.28354153,50,-31.15,0
7.77,5.03755982,18.286562,0.136539444,-0.002368947,0.09331302,50,-31.71,0
7.78,5.0413148,18.05194,-0.238621548,0.000301206,0.052032545,50,-31.95,0
7.8,5.04638935,17.9803448,-0.327673316,0.02200216,-0.005430543,50,-32.02,0
7.82,5.05281894,18.3279419,-0.295451581,0.008961164,-0.172157615,50,-31.67,0
7.83,5.05802531,19.19545,-0.020739675,0.000339426,-0.2882025,50,-30.8,0
7.85,5.06358841,20.3839016,-0.383470744,0.02357845,-0.330790579,50,-29.62,0
7.87,5.0695293,21.5518112,0.00999659,0.011861941,-0.356042922,50,-28.45,0
7.88,5.07569054,22.8090878,0.005841159,0.014907304,-0.3347675,50,-27.19,0
7.9,5.08229688,23.9155369,0.013700774,0.005953678,-0.3045109,50,-26.08,0
7.92,5.08921149,24.9893475,0.009650304,0.002611086,-0.280514538,50,-25.01,0
7.94,5.09629475,25.9083767,0.007526661,-0.000245308,-0.262509346,50,-24.09,0
7.95,5.10180673,26.8658772,0.013582679,0.002631379,-0.2456916,50,-23.13,0
7.96,5.10947009,27.656023,0.003632286,0.001299918,-0.229385927,50,-22.34,0
7.98,5.11737503,28.4737148,0.002227859,0.000827249,-0.213449463,50,-21.53,0
8,5.12546941,28.94461,0.4465876,0.04460089,0.04849054,50,-21.06,0
8.02,5.13350844,28.0810261,-0.033424683,0.013047935,0.493706435,50,-21.92,0
8.03,5.14083586,24.2057629,-0.021593316,-0.015345234,0.981747866,50,-25.79,0
8.05,5.14903131,22.00198,-0.012390051,-0.002407759,0.4892289,50,-28,0
8.07,5.15455391,18.1623268,0.003089303,0.00387972,1.36594129,50,-31.84,0
8.09,5.15924597,15.3524151,0.225027308,-0.000372093,0.5190189,50,-34.65,0
8.1,5.16344368,14.3658791,-0.059972912,0.007693958,0.123654142,50,-35.63,0
8.12,5.16751584,14.1273909,0.183973417,-0.002292113,0.047360506,50,-35.87,0
8.14,5.17133956,13.9652376,-0.150524676,0.012751002,0.035322256,50,-36.03,0
8.15,5.1752497,13.82647,-0.3942381,0.023533607,0.020231178,50,-36.17,0
8.17,5.17920912,13.82418,-0.186118737,0.014531568,-0.02471586,50,-36.18,0
8.19,5.18313654,14.0628242,-0.327023566,0.003530429,-0.09590669,50,-35.94,0
8.21,5.18716289,14.55484,0.160387069,-0.016155187,-0.152999252,50,-35.45,0
8.22,5.19139291,15.2166233,0.063247316,0.002672457,-0.233751982,50,-34.78,0
8.24,5.19576899,16.3542614,-0.007808142,-0.001245743,-0.3438887,50,-33.65,0
8.26,5.20053125,17.594532,-0.007797277,0.002372242,-0.3543862,50,-32.41,0
8.27,5.2055292,18.5352116,-0.00677946,0.004953903,-0.117017612,50,-31.46,0
8.29,5.21083721,18.8232136,-0.005824108,-0.01383691,-0.167917222,50,-31.18,0
8.31,5.2163042,19.881134,-0.012705758,0.004555995,-0.3292425,50,-30.12,0
8.32,5.2220168,21.08572,-0.09304088,0.007157243,-0.36840564,50,-28.91,0
8.34,5.22813151,22.4611816,-0.341344178,0.009395182,-0.37031123,50,-27.54,0
8.36,5.234682,23.6870632,-0.00198409,0.027475346,-0.3648522,50,-26.31,0
8.37,5.24149876,25.0041027,0.002397219,0.001144357,-0.3616105,50,-25,0
8.39,5.24869136,26.2699089,0.02798348,0.001464803,-0.340621173,50,-23.73,0
8.41,5.25631037,27.40604,0.01304129,0.002384973,-0.325837821,50,-22.59,0
8.42,5.26404036,28.5858974,-0.012270963,-0.003711015,-0.324312747,50,-21.41,0
8.44,5.27218451,29.6443634,0.017001411,0.02760866,-0.28732115,50,-20.36,0
8.46,5.28056362,30.1471119,0.050459508,0.017250057,0.04250505,50,-19.85,0
8.47,5.28896836,29.59041,-0.059045564,0.00641029,0.199827537,50,-20.41,0
8.49,5.29714996,28.7916641,0.155923963,-0.014895099,0.226459026,50,-21.21,0
8.51,5.30541939,28.29359,0.103578061,-0.01880837,0.0846325,50,-21.71,0
8.53,5.31311749,28.0912418,0.20149225,-0.007331748,0.06693065,50,-21.91,0
8.54,5.32101047,27.7882481,0.089221306,0.004134225,0.077791534,50,-22.21,0
8.56,5.32869775,27.5048943,0.2184623,0.001687489,0.07255565,50,-22.5,0
8.58,5.33629962,27.2285976,0.191675082,-0.019016333,0.07742248,50,-22.77,0
8.59,5.34401882,26.8358288,0.136673823,0.004334589,0.1663695,50,-23.16,0
8.61,5.3512442,24.4180775,0.134520248,0.003806834,1.170869,50,-25.58,0
8.63,5.35728741,19.5325527,0.12141721,-0.04277876,1.09846187,50,-30.47,0
8.64,5.36252153,17.0910339,0.07771127,-0.002742623,0.808851838,50,-32.91,0
8.66,5.36671841,12.9462767,0.043744166,-0.007933916,0.8592193,50,-37.05,0
8.68,5.37016024,11.0432606,0.243514881,-0.020692045,0.6653286,50,-38.96,0
8.69,5.37174831,0.5649152,-0.2015935,-0.015675208,2.19041085,50,-49.44,0
8.71,5.37208744,1.84547257,0.1737118,0.014608622,-0.6754957,50,-48.15,0
8.73,5.37297393,4.30362463,0.2786142,-0.00415329,-0.652675033,50,-45.7,0
8.74,5.37442335,6.132188,0.268790334,0.000166271,-0.4238999,50,-43.87,0
8.76,5.37618448,6.624491,-0.14648661,0.009167226,0.07552097,50,-43.38,0
8.78,5.37798132,6.19733334,-0.083255835,0.003239957,0.118562505,50,-43.8,0
8.79,5.37969263,5.88253069,-0.0802913,-0.001151006,0.073343635,50,-44.12,0
8.81,5.38147053,5.20047331,0.149050325,0.06926809,0.040797442,50,-44.8,0
8.83,5.38292772,4.93651438,0.138720021,0.044596616,0.009760607,50,-45.06,0
8.85,5.38435522,4.297975,-0.224211827,0.015214522,0.5254242,50,-45.7,0
8.86,5.384659,0.016036127,-0.23542279,0.213760361,0.7161034,50,-49.98,0
8.88,5.38466125,0,-3.30E-05,-0.00022246,-7.98E-06,0,0,0
